Folder: cornerstone-pdk/SiN_200nm/materials

Note: README.md
# cornerstone-pdk

Repository for official PDK releases of CORNERSTONE. 

The structure of this repository is arranged for the convenience of the export toolset. The platform material (component GDS, material data, DRC rules) can be found as a whole in Wavephotonics PDK Management Platform ([PDK Portal](https://cornerstone.wavephotonics.com/)), as well as on our website : [Live MPW Calls](https://cornerstone.sotonfab.co.uk/mpw/live-calls/)

We currently offer these platforms as part of our MPW service:

- SOI 220nm Active
- SOI 220nm Passive
- SOI 340nm
- SOI 500nm
- Ge-on-Si
- Suspended Si 
- SiN 300nm
- SiN 200nm Visible

We currently have two versions of Suspended Si (biased/unbiased), please communicate with us the version you chose during submission.

For custom materials and topologies, please contact us at [cornerstone@soton.ac.uk](mailto:cornerstone@soton.ac.uk)

## Overview of the repository structure

- `SiN_300nm/`, `Si_220nm_active/`, &c: Folders for platforms that CORNERSTONE offers.
- `<PlatformFolder>/components/`: Contains components for the said platform.
- `<PlatformFolder>/cross-sections/`: Contains cross-sections defined within the platform.
- `<PlatformFolder>/floorplans/`: Contains the floorplans/design areas for the offered tiers of service, specific to the platform.
- `<PlatformFolder>/materials/`: Contains refractive index information regarding the materials involved in the said platform.
- `<PlatformFolder>/docs/`: Contains documentation-related files for the platform.
- `<PlatformFolder>/experimental/`: Contains experimental data (mostly post-processed) for the platform.
- `<PlatformFolder>/sparams/`: Contains generated s-parameters for the components within the platform.
- `<PlatformFolder>/process_overview.yaml/`: Process overview for the platform - contains information such as layer definitions and corresponding process parameters.
- `<PlatformFolder>/drc_rules.lydrc`: DRC script for the platform.
- `<PlatformFolder>/layerstack.png/`: Diagram of offered topologies within the platform.
- `<PlatformFolder>/layers.lyp`: Cosmetics for KLayout Layer Toolbox
- `<PlatformFolder>/CHANGELOG.md`: Version information for the platform.
- `README.md`: This document
- `pyproject.toml`: Dependency list for installation using `uv pip install .[docs, validator]`

# Validation

Wavephotonics YAML format is a convenient standard to use for PDK export across a variety of platforms. The validator for this format is listed in the dependencies of the repository. To use, simply sync the dependencies, activate the environment and run validation command. 

Using `uv`, these can be done as:
- `uv sync`
- `source .venv/bin/activate` (Linux) or `./venv/Scripts/activate` (Windows)
- `pdk-data-verifier validate .`

You can also use the verifier through the testing panel in VSCode. To access this, select the Python interpreter for the virtual environment (`Ctrl + Shift + P` -> `Python: Select Interpreter` -> `.venv/Scripts/python.exe` or `.venv/bin

File: SiO2.csv
wavelength (nm),refractive index
192.182,1.568052
196.97,1.560828
201.759,1.554331
206.548,1.548461
211.338,1.543134
216.128,1.538283
220.919,1.533849
225.709,1.529783
230.5,1.526044
235.292,1.522596
240.084,1.519408
244.876,1.516453
249.668,1.513709
254.46,1.511153
259.253,1.50877
264.046,1.506543
268.84,1.504457
273.633,1.502502
278.427,1.500665
283.2211,1.498938
288.015,1.497311
292.81,1.495776
297.604,1.494325
302.399,1.492954
307.194,1.491656
311.989,1.490424
316.784,1.489257
321.579,1.488146
326.374,1.487092
331.17,1.486087
335.965,1.485129
340.76,1.484216
345.556,1.483345
350.352,1.482512
355.147,1.481717
359.943,1.480955
364.738,1.480226
369.534,1.479528
374.33,1.478857
379.125,1.478214
383.921,1.477597
388.716,1.477003
393.512,1.476432
398.307,1.475883
403.102,1.475354
407.897,1.474845
412.692,1.474355
417.487,1.473881
422.282,1.473424
427.076,1.472983
431.871,1.472557
436.665,1.472145
441.459,1.471747
446.253,1.471362
451.047,1.470989
455.84,1.470628
460.633,1.470278
465.426,1.469939
470.219,1.46961
475.011,1.469291
479.803,1.468981
484.595,1.468681
489.386,1.468389
494.178,1.468105
498.968,1.46783
503.759,1.467561
508.549,1.4673
513.339,1.467046
518.128,1.466799
522.917,1.466558
527.706,1.466323
532.494,1.466094
537.282,1.465871
542.069,1.465653
546.856,1.465441
551.642,1.465233
556.428,1.46503
561.214,1.464833
565.999,1.464639
570.783,1.464451
575.567,1.464266
580.35,1.464086
585.133,1.463909
589.915,1.463736
594.697,1.463567
599.478,1.463401
604.259,1.463239
609.039,1.46308
613.818,1.462923
618.597,1.462771
623.375,1.462621
628.1521,1.462474
632.929,1.46233
637.705,1.462188
642.48,1.462049
647.255,1.461913
652.029,1.461779
656.802,1.461646
661.574,1.461517
666.346,1.46139
671.117,1.461265
675.887,1.461142
680.657,1.461021
685.425,1.460901
690.193,1.460784
694.96,1.460668
699.726,1.460554
704.492,1.460442
709.256,1.460331
714.02,1.460223
718.782,1.460116
723.544,1.46001
728.305,1.459905
733.065,1.459802
737.824,1.459701
742.582,1.459601
747.339,1.459502
752.096,1.459404
756.851,1.459308
761.605,1.459213
766.358,1.459118
771.111,1.459025
775.862,1.458933
780.612,1.458842
785.361,1.458753
790.109,1.458663
794.856,1.458576
799.602,1.458489
804.347,1.458403
809.091,1.458318
813.833,1.458233
818.575,1.45815
823.315,1.458067
828.054,1.457985
832.792,1.457904
837.529,1.457824
842.265,1.457744
846.999,1.457666
851.732,1.457587
856.464,1.45751
861.195,1.457433
865.925,1.457356
870.653,1.457281
875.38,1.457206
880.106,1.457131
884.8302,1.457057
889.553,1.456984
894.275,1.456911
898.995,1.456838
903.715,1.456767
908.432,1.456696
913.149,1.456624
917.864,1.456554
922.577,1.456484
927.29,1.456415
932,1.456346
936.71,1.456277
941.418,1.456209
946.124,1.45614
950.829,1.456073
955.533,1.456006
960.235,1.455939
964.935,1.455873
969.634,1.455807
974.332,1.455741
979.028,1.455675
983.722,1.455611
988.415,1.455546
993.107,1.455481
997.796,1.455416
1015.65,1.455174
1025.89,1.455036
1036.13,1.4549
1046.37,1.454764
1056.62,1.454629
1066.87,1.454495
1077.12,1.454362
1087.37,1.454229
1097.63,1.454097
1107.88,1.453966
1118.14,1.453834
1128.4,1.453704
1138.67,1.453574
1148.93,1.453443
1159.2,1.453314
1169.47,1.453184
1179.74,1.453055
1190.01,1.452927
1200.29,1.452798
1210.57,1.452669
1220.85,1.452541
1231.13,1.452412
1241.42,1.452284
1251.71,1.452155
1262,1.452027
1272.29,1.451899
1282.58,1.45177
1292.88,1.451642
1303.18,1.451513
1313.49,1.451384
1323.79,1.451255
1334.1,1.451126
1344.41,1.450996
1354.72,1.450866
1365.04,1.450737
1375.36,1.450606
1385.68,1.450476
1396,1.450345
1406.33,1.450214
1416.65,1.450083
1426.99,1.449951
1437.32,1.449819
1447.66,1.449687
1458,1.449554
1468.34,1.44942
1478.68,1.449287
1489.03,1.449152
1499.38,1.449017
1509.74,1.448882
1520.09,1.448747
1530.45,1.448611
1540.82,1.448475
1551.18,1.448337
1561.55,1.4482
1571.92,1.448062
1582.3,1.447924
1592.67,1.447785
1603.05,1.447645
1613.44,1.447505
1623.82,1.447363
1634.21,1.447222
1644.61,1.44708
1655,1.446938
1665.4,1.446795
1675.8,1.446651
1686.21,1.446507
1696.62,1.446362