Folder: cornerstone-pdk/SiN_300nm/materials

Note: README.md
# cornerstone-pdk

Repository for official PDK releases of CORNERSTONE. 

The structure of this repository is arranged for the convenience of the export toolset. The platform material (component GDS, material data, DRC rules) can be found as a whole in Wavephotonics PDK Management Platform ([PDK Portal](https://cornerstone.wavephotonics.com/)), as well as on our website : [Live MPW Calls](https://cornerstone.sotonfab.co.uk/mpw/live-calls/)

We currently offer these platforms as part of our MPW service:

- SOI 220nm Active
- SOI 220nm Passive
- SOI 340nm
- SOI 500nm
- Ge-on-Si
- Suspended Si 
- SiN 300nm
- SiN 200nm Visible

We currently have two versions of Suspended Si (biased/unbiased), please communicate with us the version you chose during submission.

For custom materials and topologies, please contact us at [cornerstone@soton.ac.uk](mailto:cornerstone@soton.ac.uk)

## Overview of the repository structure

- `SiN_300nm/`, `Si_220nm_active/`, &c: Folders for platforms that CORNERSTONE offers.
- `<PlatformFolder>/components/`: Contains components for the said platform.
- `<PlatformFolder>/cross-sections/`: Contains cross-sections defined within the platform.
- `<PlatformFolder>/floorplans/`: Contains the floorplans/design areas for the offered tiers of service, specific to the platform.
- `<PlatformFolder>/materials/`: Contains refractive index information regarding the materials involved in the said platform.
- `<PlatformFolder>/docs/`: Contains documentation-related files for the platform.
- `<PlatformFolder>/experimental/`: Contains experimental data (mostly post-processed) for the platform.
- `<PlatformFolder>/sparams/`: Contains generated s-parameters for the components within the platform.
- `<PlatformFolder>/process_overview.yaml/`: Process overview for the platform - contains information such as layer definitions and corresponding process parameters.
- `<PlatformFolder>/drc_rules.lydrc`: DRC script for the platform.
- `<PlatformFolder>/layerstack.png/`: Diagram of offered topologies within the platform.
- `<PlatformFolder>/layers.lyp`: Cosmetics for KLayout Layer Toolbox
- `<PlatformFolder>/CHANGELOG.md`: Version information for the platform.
- `README.md`: This document
- `pyproject.toml`: Dependency list for installation using `uv pip install .[docs, validator]`

# Validation

Wavephotonics YAML format is a convenient standard to use for PDK export across a variety of platforms. The validator for this format is listed in the dependencies of the repository. To use, simply sync the dependencies, activate the environment and run validation command. 

Using `uv`, these can be done as:
- `uv sync`
- `source .venv/bin/activate` (Linux) or `./venv/Scripts/activate` (Windows)
- `pdk-data-verifier validate .`

You can also use the verifier through the testing panel in VSCode. To access this, select the Python interpreter for the virtual environment (`Ctrl + Shift + P` -> `Python: Select Interpreter` -> `.venv/Scripts/python.exe` or `.venv/bin

File: SiN.csv
wavelength (nm), refractive index
192.182,2.6617
196.97,2.622259
201.759,2.582362
206.548,2.542002
211.338,2.501173
216.128,2.460593
220.919,2.426076
225.709,2.391545
230.5,2.364046
235.292,2.336247
240.084,2.313661
244.876,2.29214
249.668,2.272425
254.46,2.256328
259.253,2.240116
264.046,2.226616
268.84,2.214743
273.633,2.202805
278.427,2.19254
283.2211,2.183395
288.015,2.17421
292.81,2.165519
297.604,2.158708
302.399,2.151876
307.194,2.145022
311.989,2.139132
316.784,2.13462
321.579,2.130099
326.374,2.125568
331.17,2.121027
335.965,2.116476
340.76,2.111916
345.556,2.107345
350.352,2.102765
355.147,2.098522
359.943,2.095861
364.738,2.093196
369.534,2.090528
374.33,2.087857
379.125,2.085181
383.921,2.082503
388.716,2.079821
393.512,2.077136
398.307,2.074448
403.102,2.071756
407.897,2.06906
412.692,2.066361
417.487,2.064751
422.282,2.063308
427.076,2.061865
431.871,2.06042
436.665,2.058975
441.459,2.057528
446.253,2.056081
451.047,2.054632
455.84,2.053183
460.633,2.051733
465.426,2.050282
470.219,2.048829
475.011,2.047376
479.803,2.045922
484.595,2.044467
489.386,2.043011
494.178,2.041554
498.968,2.040547
503.759,2.039816
508.549,2.039085
513.339,2.038354
518.128,2.037622
522.917,2.036891
527.706,2.036159
532.494,2.035427
537.282,2.034694
542.069,2.033962
546.856,2.033229
551.642,2.032496
556.428,2.031763
561.214,2.03103
565.999,2.030296
570.783,2.029562
575.567,2.028829
580.35,2.028095
585.133,2.02736
589.915,2.026626
594.697,2.025892
599.478,2.025157
604.259,2.024422
609.039,2.023687
613.818,2.022952
618.597,2.022216
623.375,2.021772
628.1521,2.02145
632.929,2.021127
637.705,2.020804
642.48,2.020482
647.255,2.020159
652.029,2.019837
656.802,2.019514
661.574,2.019192
666.346,2.018869
671.117,2.018546
675.887,2.018224
680.657,2.017901
685.425,2.017578
690.193,2.017256
694.96,2.016933
699.726,2.016611
704.492,2.016288
709.256,2.015965
714.02,2.015643
718.782,2.01532
723.544,2.014998
728.305,2.014675
733.065,2.014353
737.824,2.01403
742.582,2.013708
747.339,2.013385
752.096,2.013063
756.851,2.01274
761.605,2.012418
766.358,2.012095
771.111,2.011773
775.862,2.011451
780.612,2.011128
785.361,2.010806
790.109,2.010484
794.856,2.010161
799.602,2.009839
804.347,2.009516
809.091,2.009194
813.833,2.008872
818.575,2.00855
823.315,2.008228
828.054,2.007966
832.792,2.007852
837.529,2.007738
842.265,2.007623
846.999,2.007509
851.732,2.007395
856.464,2.007281
861.195,2.007166
865.925,2.007052
870.653,2.006938
875.38,2.006824
880.106,2.00671
884.8302,2.006596
889.553,2.006482
894.275,2.006368
898.995,2.006254
903.715,2.00614
908.432,2.006026
913.149,2.005912
917.864,2.005798
922.577,2.005684
927.29,2.00557
932,2.005456
936.71,2.005342
941.418,2.005229
946.124,2.005115
950.829,2.005001
955.533,2.004888
960.235,2.004774
964.935,2.00466
969.634,2.004547
974.332,2.004433
979.028,2.00432
983.722,2.004206
988.415,2.004093
993.107,2.003979
997.796,2.003866
1015.65,2.003434
1025.89,2.003186
1036.13,2.002939
1046.37,2.002691
1056.62,2.002443
1066.87,2.002195
1077.12,2.001947
1087.37,2.001698
1097.63,2.00145
1107.88,2.001202
1118.14,2.000953
1128.4,2.000705
1138.67,2.000456
1148.93,2.000208
1159.2,1.999959
1169.47,1.99971
1179.74,1.999461
1190.01,1.999212
1200.29,1.998963
1210.57,1.998714
1220.85,1.998464
1231.13,1.998215
1241.42,1.997966
1251.71,1.997716
1262,1.997466
1272.29,1.997217
1282.58,1.996967
1292.88,1.996717
1303.18,1.996467
1313.49,1.996217
1323.79,1.995967
1334.1,1.995716
1344.41,1.995466
1354.72,1.995216
1365.04,1.994965
1375.36,1.994714
1385.68,1.994464
1396,1.994213
1406.33,1.993962
1416.65,1.993711
1426.99,1.99346
1437.32,1.993209
1447.66,1.992957
1458,1.992706
1468.34,1.992454
1478.68,1.992203
1489.03,1.991951
1499.38,1.991699
1509.74,1.991447
1520.09,1.991195
1530.45,1.990943
1540.82,1.990691
1551.18,1.990438
1561.55,1.990186
1571.92,1.989933
1582.3,1.989681
1592.67,1.989428
1603.05,1.989175
1613.44,1.988922
1623.82,1.988669
1634.21,1.988416
1644.61,1.988163
1655,1.987909
1665.4,1.987656
1675.8,1.987402
1686.21,1.987148
1696.62,1.986894

File: SiO2.csv
wavelength (nm),refractive index
200,1.55179
206.2,1.54352
212.4,1.53599
218.6,1.52988
224.8,1.52442
231,1.51952
237.2,1.51517
243.4,1.51128
249.6,1.50771
255.8,1.50456
262,1.50154
268.2,1.49876
274.4,1.49626
280.6,1.49395
286.8,1.49184
293,1.48986
299.2,1.48802
305.4,1.48636
311.6,1.48482
317.8,1.48334
324,1.48192
330.2,1.48054
336.4,1.47933
342.6,1.47818
348.8,1.47709
355,1.47608
361.2,1.4751
367.4,1.4742
373.6,1.47338
379.8,1.47258
386,1.4718
392.2,1.47105
398.4,1.47032
404.6,1.46962
410.8,1.469
417,1.4684
423.2,1.46782
429.4,1.46726
435.6,1.46671
441.8,1.46622
448,1.46574
454.2,1.46527
460.4,1.46482
466.6,1.46438
472.8,1.46397
479,1.46357
485.2,1.46319
491.4,1.46282
497.6,1.46247
503.8,1.46213
510,1.4618
516.2,1.46149
522.4,1.46118
528.6,1.46088
534.8,1.46059
541,1.46031
547.2,1.46003
553.4,1.45978
559.6,1.45952
565.8,1.45928
572,1.45904
578.2,1.4588
584.4,1.45858
590.6,1.45836
596.8,1.45816
603,1.45795
609.2,1.45775
615.4,1.45756
621.6,1.45737
627.8,1.45718
634,1.457
640.2,1.45681
646.4,1.45664
652.6,1.45647
658.8,1.45631
665,1.45615
671.2,1.45599
677.4,1.45584
683.6,1.45569
689.8,1.45554
696,1.45539
702.2,1.45525
708.4,1.45511
714.6,1.45497
720.8,1.45484
727,1.45471
733.2,1.45458
739.4,1.45446
745.6,1.45433
751.8,1.45421
758,1.45409
764.2,1.45397
770.4,1.45385
776.6,1.45374
782.8,1.45363
789,1.45352
795.2,1.45341
801.4,1.4533
807.6,1.45319
813.8,1.45309
820,1.45299
826.2,1.45289
832.4,1.45279
838.6,1.45269
844.8,1.45259
851,1.4525
857.2,1.4524
863.4,1.45231
869.6,1.45221
875.8,1.45212
882,1.45203
888.2,1.45194
894.4,1.45185
900.6,1.45176
906.8,1.45166
913,1.45157
919.2,1.45148
925.4,1.4514
931.6,1.45131
937.8,1.45122
944,1.45114
950.2,1.45105
956.4,1.45097
962.6,1.45089
968.8,1.45081
975,1.45073
981.2,1.45065
987.4,1.45057
993.6,1.4505
999.8,1.45042
1006,1.45034
1012.2,1.45027
1018.4,1.45019
1024.6,1.45011
1030.8,1.45003
1037,1.44996
1043.2,1.44988
1049.4,1.44981
1055.6,1.44973
1061.8,1.44966
1068,1.44958
1074.2,1.44951
1080.4,1.44944
1086.6,1.44937
1092.8,1.44929
1099,1.44922
1105.2,1.44915
1111.4,1.44908
1117.6,1.449
1123.8,1.44893
1130,1.44886
1136.2,1.44878
1142.4,1.44869
1148.6,1.44861
1154.8,1.44853
1161,1.44845
1167.2,1.44837
1173.4,1.44829
1179.6,1.44821
1185.8,1.44813
1192,1.44805
1198.2,1.44798
1204.4,1.4479
1210.6,1.44783
1216.8,1.44775
1223,1.44768
1229.2,1.44761
1235.4,1.44754
1241.6,1.44746
1247.8,1.44739
1254,1.44732
1260.2,1.44726
1266.4,1.44719
1272.6,1.44712
1278.8,1.44705
1285,1.44699
1291.2,1.44692
1297.4,1.44685
1303.6,1.44679
1309.8,1.44673
1316,1.44666
1322.2,1.4466
1328.4,1.44654
1334.6,1.44648
1340.8,1.44642
1347,1.44636
1353.2,1.4463
1359.4,1.44624
1365.6,1.44617
1371.8,1.4461
1378,1.44603
1384.2,1.44596
1390.4,1.44589
1396.6,1.44582
1402.8,1.44575
1409,1.44567
1415.2,1.4456
1421.4,1.44552
1427.6,1.44545
1433.8,1.44538
1440,1.4453
1446.2,1.44523
1452.4,1.44516
1458.6,1.44509
1464.8,1.44502
1471,1.44495
1477.2,1.44488
1483.4,1.4448
1489.6,1.44473
1495.8,1.44466
1502,1.44458
1508.2,1.44451
1514.4,1.44444
1520.6,1.44437
1526.8,1.4443
1533,1.44422
1539.2,1.44414
1545.4,1.44406
1551.6,1.44398
1557.8,1.4439
1564,1.44382
1570.2,1.44375
1576.4,1.44367
1582.6,1.44359
1588.8,1.44351
1595,1.44344
1601.2,1.44336
1607.4,1.44329
1613.6,1.44321
1619.8,1.44314
1626,1.44307
1632.2,1.44299
1638.4,1.44292
1644.6,1.44285
1650.8,1.44278
1657,1.44271
1663.2,1.44264
1669.4,1.44256
1675.6,1.44248
1681.8,1.4424
1688,1.44232
1694.2,1.44225
1700.4,1.44216
1706.6,1.44208
1712.8,1.442
1719,1.44191
1725.2,1.44183
1731.4,1.44174
1737.6,1.44166
1743.8,1.44158
1750,1.4415
1756.2,1.44141
1762.4,1.44133
1768.6,1.44125
1774.8,1.44117
1781,1.44109
1787.2,1.44101
1793.4,1.44094
1799.6,1.44086
1805.8,1.44078
1812,1.4407
1818.2,1.44061
1824.4,1.44052
1830.6,1.44043
1836.8,1.44034
1843,1.44025
1849.2,1.44016
1855.4,1.44007
1861.6,1.43998
1867.8,1.43989
1874,1.4398
1880.2,1.43971
1886.4,1.43963
1892.6,1.43954
1898.8,1.43946
1905,1.43937
1911.2,1.43929
1917.4,1.4392
1923.6,1.43912
1929.8,1.43904
1936,1.43895
1942.2,1.43887
1948.4,1.43879
1954.6,1.43871
1960.8,1.43863
1967,1.43855
1973.2,1.43846
1979.4,1.43837
1985.6,1.43827
1991.8,1.43818
1998,1.43809
2000,1.43806