Folder: cornerstone-pdk/Si_220nm_active/materials

Note: README.md
# cornerstone-pdk

Repository for official PDK releases of CORNERSTONE. 

The structure of this repository is arranged for the convenience of the export toolset. The platform material (component GDS, material data, DRC rules) can be found as a whole in Wavephotonics PDK Management Platform ([PDK Portal](https://cornerstone.wavephotonics.com/)), as well as on our website : [Live MPW Calls](https://cornerstone.sotonfab.co.uk/mpw/live-calls/)

We currently offer these platforms as part of our MPW service:

- SOI 220nm Active
- SOI 220nm Passive
- SOI 340nm
- SOI 500nm
- Ge-on-Si
- Suspended Si 
- SiN 300nm
- SiN 200nm Visible

We currently have two versions of Suspended Si (biased/unbiased), please communicate with us the version you chose during submission.

For custom materials and topologies, please contact us at [cornerstone@soton.ac.uk](mailto:cornerstone@soton.ac.uk)

## Overview of the repository structure

- `SiN_300nm/`, `Si_220nm_active/`, &c: Folders for platforms that CORNERSTONE offers.
- `<PlatformFolder>/components/`: Contains components for the said platform.
- `<PlatformFolder>/cross-sections/`: Contains cross-sections defined within the platform.
- `<PlatformFolder>/floorplans/`: Contains the floorplans/design areas for the offered tiers of service, specific to the platform.
- `<PlatformFolder>/materials/`: Contains refractive index information regarding the materials involved in the said platform.
- `<PlatformFolder>/docs/`: Contains documentation-related files for the platform.
- `<PlatformFolder>/experimental/`: Contains experimental data (mostly post-processed) for the platform.
- `<PlatformFolder>/sparams/`: Contains generated s-parameters for the components within the platform.
- `<PlatformFolder>/process_overview.yaml/`: Process overview for the platform - contains information such as layer definitions and corresponding process parameters.
- `<PlatformFolder>/drc_rules.lydrc`: DRC script for the platform.
- `<PlatformFolder>/layerstack.png/`: Diagram of offered topologies within the platform.
- `<PlatformFolder>/layers.lyp`: Cosmetics for KLayout Layer Toolbox
- `<PlatformFolder>/CHANGELOG.md`: Version information for the platform.
- `README.md`: This document
- `pyproject.toml`: Dependency list for installation using `uv pip install .[docs, validator]`

# Validation

Wavephotonics YAML format is a convenient standard to use for PDK export across a variety of platforms. The validator for this format is listed in the dependencies of the repository. To use, simply sync the dependencies, activate the environment and run validation command. 

Using `uv`, these can be done as:
- `uv sync`
- `source .venv/bin/activate` (Linux) or `./venv/Scripts/activate` (Windows)
- `pdk-data-verifier validate .`

You can also use the verifier through the testing panel in VSCode. To access this, select the Python interpreter for the virtual environment (`Ctrl + Shift + P` -> `Python: Select Interpreter` -> `.venv/Scripts/python.exe` or `.venv/bin

File: Si.csv
wavelength (nm),refractive index
1.20036,3.52349
1.2059,3.52245
1.21146,3.52142
1.21705,3.52041
1.22267,3.5194
1.22832,3.51841
1.23398,3.51742
1.23968,3.51645
1.2454,3.51549
1.25115,3.51453
1.25693,3.51359
1.26273,3.51266
1.26856,3.51173
1.27441,3.51082
1.28029,3.50991
1.2862,3.50902
1.29214,3.50813
1.29811,3.50726
1.3041,3.50639
1.31012,3.50553
1.31616,3.50468
1.32224,3.50384
1.32834,3.50301
1.33447,3.50219
1.34063,3.50137
1.34682,3.50057
1.35304,3.49977
1.35928,3.49898
1.36556,3.49819
1.37186,3.49742
1.37819,3.49665
1.38455,3.4959
1.39094,3.49515
1.39737,3.4944
1.40382,3.49367
1.41029,3.49294
1.4168,3.49222
1.42334,3.49151
1.42991,3.4908
1.43651,3.4901
1.44314,3.48941
1.44981,3.48872
1.4565,3.48805
1.46322,3.48737
1.46997,3.48671
1.47676,3.48605
1.48358,3.4854
1.49042,3.48476
1.4973,3.48412
1.50421,3.48349
1.51116,3.48286
1.51813,3.48224
1.52514,3.48163
1.53218,3.48102
1.53925,3.48042
1.54636,3.47983
1.5535,3.47924
1.56067,3.47865
1.56787,3.47808
1.57511,3.4775
1.58238,3.47694
1.58968,3.47638
1.59702,3.47582
1.60439,3.47527
1.6118,3.47473
1.61923,3.47419
1.62671,3.47366
1.63422,3.47313
1.64176,3.47261
1.64934,3.47209
1.65695,3.47158
1.6646,3.47107
1.67228,3.47057
1.68,3.47007
1.68776,3.46958
1.69555,3.46909
1.70337,3.46861
1.71124,3.46813
1.71913,3.46765
1.72707,3.46718
1.73504,3.46672
1.74305,3.46626
1.7511,3.4658
1.75918,3.46535
1.7673,3.46491
1.77546,3.46446
1.78365,3.46403
1.79188,3.46359
1.80015,3.46316
1.80846,3.46274
1.81681,3.46232
1.8252,3.4619
1.83362,3.46148
1.84209,3.46108
1.85059,3.46067
1.85913,3.46027
1.86771,3.45987
1.87633,3.45948
1.88499,3.45909
1.89369,3.4587
1.90244,3.45832
1.91122,3.45794
1.92004,3.45757
1.9289,3.4572
1.9378,3.45683
1.94675,3.45646
1.95573,3.4561
1.96476,3.45575
1.97383,3.45539
1.98294,3.45504
1.99209,3.4547
2.00129,3.45435
2.01053,3.45401
2.01981,3.45367
2.02913,3.45334
2.0385,3.45301
2.04791,3.45268
2.05736,3.45236
2.06685,3.45204
2.07639,3.45172
2.08598,3.4514
2.09561,3.45109
2.10528,3.45078
2.115,3.45048
2.12476,3.45017
2.13457,3.44987
2.14442,3.44958
2.15432,3.44928
2.16426,3.44899
2.17425,3.4487
2.18429,3.44841
2.19437,3.44813
2.2045,3.44785
2.21467,3.44757
2.2249,3.4473
2.23517,3.44702
2.24548,3.44675
2.25585,3.44648
2.26626,3.44622
2.27672,3.44596
2.28723,3.4457
2.29779,3.44544
2.30839,3.44518
2.31905,3.44493
2.32975,3.44468
2.34051,3.44443
2.35131,3.44419
2.36216,3.44394
2.37307,3.4437
2.38402,3.44346
2.39502,3.44323
2.40608,3.44299
2.41718,3.44276
2.42834,3.44253
2.43955,3.4423
2.45081,3.44208
2.46212,3.44185
2.47349,3.44163
2.48491,3.44141
2.49638,3.44119
2.5079,3.44098
2.51947,3.44077
2.5311,3.44056
2.54279,3.44035
2.55452,3.44014
2.56631,3.43993
2.57816,3.43973
2.59006,3.43953
2.60202,3.43933
2.61403,3.43913
2.62609,3.43894
2.63821,3.43874
2.65039,3.43855
2.66262,3.43836
2.67491,3.43817
2.68726,3.43799
2.69967,3.4378
2.71213,3.43762
2.72464,3.43744
2.73722,3.43726
2.74986,3.43708
2.76255,3.4369
2.7753,3.43673
2.78811,3.43655
2.80098,3.43638
2.81391,3.43621
2.8269,3.43604
2.83994,3.43588
2.85305,3.43571
2.86622,3.43555
2.87945,3.43539
2.89274,3.43523
2.9061,3.43507
2.91951,3.43491
2.93299,3.43475
2.94652,3.4346
2.96012,3.43445
2.97379,3.43429
2.98751,3.43414
3.0013,3.43399