Folder: cornerstone-pdk/Si_sus_bias/materials

Note: README.md
# cornerstone-pdk

Repository for official PDK releases of CORNERSTONE. 

The structure of this repository is arranged for the convenience of the export toolset. The platform material (component GDS, material data, DRC rules) can be found as a whole in Wavephotonics PDK Management Platform ([PDK Portal](https://cornerstone.wavephotonics.com/)), as well as on our website : [Live MPW Calls](https://cornerstone.sotonfab.co.uk/mpw/live-calls/)

We currently offer these platforms as part of our MPW service:

- SOI 220nm Active
- SOI 220nm Passive
- SOI 340nm
- SOI 500nm
- Ge-on-Si
- Suspended Si 
- SiN 300nm
- SiN 200nm Visible

We currently have two versions of Suspended Si (biased/unbiased), please communicate with us the version you chose during submission.

For custom materials and topologies, please contact us at [cornerstone@soton.ac.uk](mailto:cornerstone@soton.ac.uk)

## Overview of the repository structure

- `SiN_300nm/`, `Si_220nm_active/`, &c: Folders for platforms that CORNERSTONE offers.
- `<PlatformFolder>/components/`: Contains components for the said platform.
- `<PlatformFolder>/cross-sections/`: Contains cross-sections defined within the platform.
- `<PlatformFolder>/floorplans/`: Contains the floorplans/design areas for the offered tiers of service, specific to the platform.
- `<PlatformFolder>/materials/`: Contains refractive index information regarding the materials involved in the said platform.
- `<PlatformFolder>/docs/`: Contains documentation-related files for the platform.
- `<PlatformFolder>/experimental/`: Contains experimental data (mostly post-processed) for the platform.
- `<PlatformFolder>/sparams/`: Contains generated s-parameters for the components within the platform.
- `<PlatformFolder>/process_overview.yaml/`: Process overview for the platform - contains information such as layer definitions and corresponding process parameters.
- `<PlatformFolder>/drc_rules.lydrc`: DRC script for the platform.
- `<PlatformFolder>/layerstack.png/`: Diagram of offered topologies within the platform.
- `<PlatformFolder>/layers.lyp`: Cosmetics for KLayout Layer Toolbox
- `<PlatformFolder>/CHANGELOG.md`: Version information for the platform.
- `README.md`: This document
- `pyproject.toml`: Dependency list for installation using `uv pip install .[docs, validator]`

# Validation

Wavephotonics YAML format is a convenient standard to use for PDK export across a variety of platforms. The validator for this format is listed in the dependencies of the repository. To use, simply sync the dependencies, activate the environment and run validation command. 

Using `uv`, these can be done as:
- `uv sync`
- `source .venv/bin/activate` (Linux) or `./venv/Scripts/activate` (Windows)
- `pdk-data-verifier validate .`

You can also use the verifier through the testing panel in VSCode. To access this, select the Python interpreter for the virtual environment (`Ctrl + Shift + P` -> `Python: Select Interpreter` -> `.venv/Scripts/python.exe` or `.venv/bin

File: Si.csv
wavelength (nm),refractive index
2119.87,3.45032
2134.57,3.44987
2149.36,3.44943
2164.26,3.44899
2179.26,3.44856
2194.37,3.44813
2209.58,3.44771
2224.9,3.4473
2240.32,3.44689
2255.85,3.44648
2271.49,3.44609
2287.23,3.4457
2303.08,3.44531
2319.05,3.44493
2335.12,3.44456
2351.31,3.44419
2367.61,3.44382
2384.02,3.44346
2400.55,3.44311
2417.18,3.44276
2433.94,3.44242
2450.81,3.44208
2467.8,3.44174
2484.91,3.44141
2502.13,3.44109
2519.47,3.44077
2536.94,3.44045
2554.52,3.44014
2572.23,3.43983
2590.06,3.43953
2608.01,3.43923
2626.09,3.43894
2644.29,3.43865
2662.62,3.43836
2681.08,3.43808
2699.67,3.4378
2718.38,3.43753
2737.22,3.43726
2756.19,3.43699
2775.3,3.43673
2794.54,3.43647
2813.91,3.43621
2833.41,3.43596
2853.05,3.43571
2872.83,3.43547
2892.74,3.43523
2912.79,3.43499
2932.99,3.43475
2953.32,3.43452
2973.79,3.43429
2994.4,3.43407
3015.16,3.43385
3036.06,3.43363
3057.1,3.43341
3078.29,3.4332
3099.63,3.43299
3121.12,3.43278
3142.75,3.43258
3164.53,3.43238
3186.47,3.43218
3208.56,3.43198
3230.8,3.43179
3253.19,3.4316
3275.74,3.43141
3298.45,3.43123
3321.31,3.43105
3344.34,3.43087
3367.52,3.43069
3390.86,3.43052
3414.36,3.43034
3438.03,3.43017
3461.86,3.43001
3485.86,3.42984
3510.02,3.42968
3534.35,3.42952
3558.85,3.42936
3583.52,3.4292
3608.36,3.42905
3633.37,3.4289
3658.56,3.42875
3683.92,3.4286
3709.45,3.42845
3735.17,3.42831
3761.06,3.42817
3787.13,3.42803
3813.38,3.42789
3839.81,3.42775
3866.43,3.42762
3893.23,3.42749
3920.21,3.42736
3947.39,3.42723
3974.75,3.4271
4002.3,3.42698
4030.04,3.42685
4057.98,3.42673
4086.11,3.42661
4114.43,3.4265
4142.95,3.42638
4171.67,3.42626
4200.59,3.42615
4229.7,3.42604
4259.02,3.42593
4288.54,3.42582
4318.27,3.42571
4348.2,3.42561
4378.34,3.4255
4408.69,3.4254
4439.25,3.4253
4470.02,3.4252
4501.01,3.4251
4532.21,3.425
4563.62,3.42491
4595.26,3.42481
4627.11,3.42472
4659.18,3.42463
4691.48,3.42453
4724,3.42444
4756.75,3.42436
4789.72,3.42427
4822.92,3.42418
4856.35,3.4241
4890.01,3.42401
4923.91,3.42393
4958.04,3.42385
4992.41,3.42377
5027.01,3.42369
5061.86,3.42361
5096.94,3.42354
5132.27,3.42346
5167.85,3.42339
5203.67,3.42331
5239.74,3.42324
5276.06,3.42317
5312.63,3.4231
5349.46,3.42303
5386.54,3.42296
5423.88,3.42289
5461.47,3.42282
5499.33,3.42275
5537.45,3.42269
5575.83,3.42262
5614.48,3.42256
5653.4,3.4225
5692.59,3.42244
5732.05,3.42238
5771.78,3.42231
5811.79,3.42226
5852.07,3.4222
5892.64,3.42214
5933.49,3.42208
5974.61,3.42202
6016.03,3.42197
6057.73,3.42191
6099.72,3.42186
6142,3.42181
6184.58,3.42175
6227.44,3.4217
6270.61,3.42165
6314.08,3.4216
6357.84,3.42155
6401.91,3.4215
6446.29,3.42145
6490.97,3.4214
6535.97,3.42135
6581.27,3.4213
6626.89,3.42125
6672.83,3.42121
6719.08,3.42116
6765.66,3.42111
6812.55,3.42107
6859.78,3.42103
6907.32,3.42099
6955.2,3.42096
7003.42,3.42092
7051.96,3.42088
7100.84,3.42084
7150.06,3.4208
7199.63,3.42076
7249.53,3.42072
7299.78,3.42068
7350.38,3.42065
7401.33,3.42061
7452.64,3.42057
7504.29,3.42053
7556.31,3.42049
7608.69,3.42046
7661.43,3.42043
7714.54,3.4204
7768.01,3.42037
7821.86,3.42033
7876.08,3.4203
7930.67,3.42027
7985.64,3.42023
8041,3.4202
8096.73,3.42017
8152.86,3.42013
8209.37,3.4201
8266.28,3.42006
8323.57,3.42003
8381.27,3.42
8439.37,3.41997
8497.87,3.41994
8556.77,3.41991
8616.08,3.41988
8675.81,3.41986
8735.94,3.41983
8796.5,3.41981
8857.47,3.41979
8918.87,3.41977
8980.69,3.41975
9042.94,3.41973
9105.63,3.41971
9168.74,3.41969
9232.3,3.41966
9296.29,3.41964
9360.73,3.41961
9425.62,3.41958
9490.95,3.41955
9556.74,3.41952
9622.99,3.41949
9689.69,3.41946
9756.86,3.41943
9824.49,3.41941
9892.59,3.41938
9961.16,3.41935
10030.2,3.41933
10099.7,3.4193
10169.7,3.41928
10240.2,3.41927
10311.2,3.41925
10382.7,3.41924
10454.7,3.41923
10527.1,3.41921
10600.1,3.41919
10673.6,3.41917
10747.6,3.41914
10822.1,3.41912
10897.1,3.41911
10972.6,3.41909
11048.7,3.41909
11125.3,3.41909
11202.4,3.41908
11280,3.41908
11358.2,3.41908
11436.9,3.41908
11516.2,3.41907
11596,3.41907
11676.4,3.41906
11757.4,3.41903
11838.9,3.41901
11920.9,3.41898
12003.6,3.41894
12086.8,3.41892
12170.5,3.41892
12254.9,3.41893
12339.8,3.41893
12425.4,3.41891
12511.5,3.41888
12598.2,3.41886
12685.6,3.41885
12773.5,3.41884
12862,3.41883
12951.2,3.41882
13041,3.41881
13131.4,3.4188
13222.4,3.41878
13314,3.41878
13406.3,3.41877
13499.3,3.41879
13592.8,3.41883
13687.1,3.41886
13781.9,3.41887
13877.5,3.41888
13973.7,3.41887
14070.5,3.41884
14168,3.41879
14266.3,3.41875
14365.1,3.4187
14464.7,3.41868
14565,3.41866
14665.9,3.41863
14767.6,3.4186
14870,3.41857
14973,3.41855
15007.6,3.41854

File: SiO2.csv
wavelength (nm),refractive index
300.193,1.50212
304.369,1.50091
308.603,1.49975
312.896,1.49862
317.249,1.49754
321.662,1.49648
326.137,1.49546
330.674,1.49448
335.274,1.49352
339.938,1.4926
344.667,1.4917
349.462,1.49084
354.323,1.49
359.253,1.48918
364.25,1.4884
369.317,1.48763
374.455,1.48689
379.664,1.48617
384.946,1.48548
390.301,1.4848
395.731,1.48415
401.236,1.48351
406.818,1.4829
412.477,1.4823
418.215,1.48172
424.033,1.48115
429.932,1.48061
435.913,1.48007
441.977,1.47956
448.126,1.47906
454.36,1.47857
460.681,1.47809
467.089,1.47763
473.587,1.47718
480.175,1.47675
486.855,1.47633
493.628,1.47591
500.495,1.47551
507.458,1.47512
514.517,1.47474
521.675,1.47437
528.932,1.47401
536.29,1.47366
543.751,1.47331
551.315,1.47298
558.985,1.47265
566.761,1.47234
574.645,1.47203
582.639,1.47172
590.745,1.47143
598.963,1.47114
607.295,1.47086
615.744,1.47058
624.309,1.47031
632.994,1.47005
641.8,1.46979
650.729,1.46953
659.781,1.46929
668.96,1.46904
678.266,1.46881
687.701,1.46857
697.268,1.46834
706.968,1.46812
716.803,1.4679
726.775,1.46768
736.885,1.46747
747.136,1.46726
757.53,1.46705
768.068,1.46685
778.753,1.46665
789.587,1.46645
800.571,1.46625
811.708,1.46606
823,1.46587
834.449,1.46568
846.057,1.4655
857.827,1.46531
869.761,1.46513
881.86,1.46495
894.128,1.46477
906.567,1.46459
919.179,1.46441
931.966,1.46423
944.93,1.46406
958.076,1.46388
971.404,1.46371
984.918,1.46353
998.619,1.46336
1012.51,1.46318
1026.6,1.46301
1040.88,1.46283
1055.36,1.46266
1070.04,1.46248
1084.93,1.4623
1100.02,1.46213
1115.32,1.46195
1130.84,1.46177
1146.57,1.46159
1162.52,1.46141
1178.69,1.46122
1195.09,1.46104
1211.71,1.46085
1228.57,1.46066
1245.66,1.46047
1262.99,1.46028
1280.56,1.46008
1298.37,1.45988
1316.44,1.45968
1334.75,1.45948
1353.32,1.45927
1372.14,1.45906
1391.23,1.45884
1410.59,1.45863
1430.21,1.4584
1450.11,1.45818
1470.28,1.45795
1490.73,1.45771
1511.47,1.45747
1532.5,1.45723
1553.82,1.45698
1575.43,1.45673
1597.35,1.45646
1619.57,1.4562
1642.1,1.45593
1664.94,1.45565
1688.11,1.45536
1711.59,1.45507
1735.4,1.45477
1759.54,1.45447
1784.02,1.45415
1808.84,1.45383
1834,1.4535
1859.52,1.45316
1885.38,1.45282
1911.61,1.45246
1938.21,1.4521
1965.17,1.45172
1992.51,1.45133
2020.23,1.45094
2048.33,1.45053
2076.82,1.45011
2105.72,1.44968
2135.01,1.44923
2164.71,1.44877
2194.82,1.4483
2225.36,1.44781
2256.32,1.44731
2287.7,1.44679
2319.53,1.44626
2351.8,1.4457
2384.51,1.44513
2417.69,1.44454
2451.32,1.44392
2485.42,1.44329
2520,1.44263
2555.05,1.44194
2590.6,1.44122
2626.64,1.44045
2663.18,1.43955
2700.22,1.43842
2737.79,1.43842
2775.87,1.43814
2814.49,1.43759
2853.64,1.43682
2893.34,1.43592
2933.59,1.43499
2974.4,1.43408
3015.78,1.43316
3057.74,1.4322
3100.27,1.43121
3143.4,1.43017
3187.13,1.42908
3231.47,1.42796
3276.42,1.42677
3322,1.42551
3368.22,1.4241
3415.07,1.423
3462.58,1.42198
3510.75,1.42069
3559.59,1.41914
3609.11,1.41759
3659.32,1.41601
3710.22,1.41439
3761.84,1.41271
3814.17,1.41096
3867.23,1.40915
3921.03,1.40726
3975.57,1.4053
4030.88,1.40325
4086.96,1.40112
4143.81,1.39889
4201.46,1.39655
4259.9,1.3941
4319.17,1.39148
4379.25,1.38888
4440.17,1.3865
4501.94,1.38364
4564.57,1.38048
4628.07,1.37717
4692.45,1.3736
4757.73,1.36975
4823.92,1.3657
4891.02,1.3617
4959.07,1.35796
5028.05,1.35439
5098,1.35061
5168.92,1.34634
5240.83,1.34186
5313.73,1.33768
5387.66,1.3339
5462.61,1.32994
5538.6,1.32512
5615.65,1.3192
5693.77,1.31247
5772.98,1.3053
5853.29,1.29789
5934.71,1.29018
6017.28,1.28214
6100.98,1.27404
6185.86,1.26544
6271.91,1.25553
6359.16,1.2444
6447.63,1.23211
6537.32,1.21853
6628.27,1.20355
6720.47,1.18715
6813.96,1.16911
6908.76,1.14897
7004.87,1.1263
7102.31,1.10132
7201.12,1.07413
7301.29,1.04248
7402.87,1.00323
7505.85,0.956149
7610.27,0.894303
7716.14,0.816285
7823.48,0.705444
7932.31,0.583275
8042.66,0.510398
8154.55,0.515594
8267.99,0.551639
8383.01,0.583478
8499.63,0.602719
8617.87,0.615214
8737.76,0.614152
8859.31,0.585299
8982.55,0.615013
9107.51,0.885061
9234.21,1.37559
9362.67,1.86211
9492.92,2.22719
9624.98,2.52165
9758.88,2.74221
9894.64,2.83162
9986.19,2.81263