Folder: cornerstone-pdk/Ge_on_Si/materials

Note: README.md
# cornerstone-pdk

Repository for official PDK releases of CORNERSTONE. 

The structure of this repository is arranged for the convenience of the export toolset. The platform material (component GDS, material data, DRC rules) can be found as a whole in Wavephotonics PDK Management Platform ([PDK Portal](https://cornerstone.wavephotonics.com/)), as well as on our website : [Live MPW Calls](https://cornerstone.sotonfab.co.uk/mpw/live-calls/)

We currently offer these platforms as part of our MPW service:

- SOI 220nm Active
- SOI 220nm Passive
- SOI 340nm
- SOI 500nm
- Ge-on-Si
- Suspended Si 
- SiN 300nm
- SiN 200nm Visible

We currently have two versions of Suspended Si (biased/unbiased), please communicate with us the version you chose during submission.

For custom materials and topologies, please contact us at [cornerstone@soton.ac.uk](mailto:cornerstone@soton.ac.uk)

## Overview of the repository structure

- `SiN_300nm/`, `Si_220nm_active/`, &c: Folders for platforms that CORNERSTONE offers.
- `<PlatformFolder>/components/`: Contains components for the said platform.
- `<PlatformFolder>/cross-sections/`: Contains cross-sections defined within the platform.
- `<PlatformFolder>/floorplans/`: Contains the floorplans/design areas for the offered tiers of service, specific to the platform.
- `<PlatformFolder>/materials/`: Contains refractive index information regarding the materials involved in the said platform.
- `<PlatformFolder>/docs/`: Contains documentation-related files for the platform.
- `<PlatformFolder>/experimental/`: Contains experimental data (mostly post-processed) for the platform.
- `<PlatformFolder>/sparams/`: Contains generated s-parameters for the components within the platform.
- `<PlatformFolder>/process_overview.yaml/`: Process overview for the platform - contains information such as layer definitions and corresponding process parameters.
- `<PlatformFolder>/drc_rules.lydrc`: DRC script for the platform.
- `<PlatformFolder>/layerstack.png/`: Diagram of offered topologies within the platform.
- `<PlatformFolder>/layers.lyp`: Cosmetics for KLayout Layer Toolbox
- `<PlatformFolder>/CHANGELOG.md`: Version information for the platform.
- `README.md`: This document
- `pyproject.toml`: Dependency list for installation using `uv pip install .[docs, validator]`

# Validation

Wavephotonics YAML format is a convenient standard to use for PDK export across a variety of platforms. The validator for this format is listed in the dependencies of the repository. To use, simply sync the dependencies, activate the environment and run validation command. 

Using `uv`, these can be done as:
- `uv sync`
- `source .venv/bin/activate` (Linux) or `./venv/Scripts/activate` (Windows)
- `pdk-data-verifier validate .`

You can also use the verifier through the testing panel in VSCode. To access this, select the Python interpreter for the virtual environment (`Ctrl + Shift + P` -> `Python: Select Interpreter` -> `.venv/Scripts/python.exe` or `.venv/bin

File: Ge.csv
wavelength (nm), refractive index
2000,4.10845
2120,4.09481
2240,4.08375
2360,4.07462
2480,4.06697
2600,4.06049
2720,4.05493
2840,4.05013
2960,4.04596
3080,4.04229
3200,4.03906
3320,4.03619
3440,4.03364
3560,4.03135
3680,4.0293
3800,4.02744
3920,4.02576
4040,4.02423
4160,4.02283
4280,4.02156
4400,4.02039
4520,4.01931
4640,4.01832
4760,4.01741
4880,4.01656
5000,4.01578
5120,4.01505
5240,4.01437
5360,4.01374
5480,4.01314
5600,4.01259
5720,4.01207
5840,4.01159
5960,4.01113
6080,4.0107
6200,4.01029
6320,4.00991
6440,4.00955
6560,4.00921
6680,4.00889
6800,4.00858
6920,4.00829
7040,4.00801
7160,4.00775
7280,4.0075
7400,4.00726
7520,4.00704
7640,4.00682
7760,4.00662
7880,4.00642
8000,4.00623
8120,4.00605
8240,4.00588
8360,4.00571
8480,4.00556
8600,4.0054
8720,4.00526
8840,4.00512
8960,4.00498
9080,4.00485
9200,4.00473
9320,4.00461
9440,4.00449
9560,4.00438
9680,4.00427
9800,4.00417
9920,4.00407
10040,4.00397
10160,4.00388
10280,4.00379
10400,4.0037
10520,4.00361
10640,4.00353
10760,4.00345
10880,4.00337
11000,4.00329
11120,4.00322
11240,4.00315
11360,4.00308
11480,4.00301
11600,4.00295
11720,4.00288
11840,4.00282
11960,4.00276
12080,4.0027
12200,4.00264
12320,4.00258
12440,4.00253
12560,4.00247
12680,4.00242
12800,4.00237
12920,4.00232
13040,4.00227
13160,4.00222
13280,4.00217
13400,4.00213
13520,4.00208
13640,4.00203
13760,4.00199
13880,4.00195
14000,4.0019

File: SOI.csv
wavelength (nm), refractive index
1499.38,3.485073
1502.83,3.484759
1506.29,3.484445
1509.74,3.484131
1513.19,3.48382
1516.64,3.483518
1520.09,3.483216
1523.55,3.482914
1527,3.482612
1530.45,3.48231
1533.91,3.482018
1537.36,3.481727
1540.82,3.481436
1544.27,3.481146
1547.73,3.480855
1551.18,3.480568
1554.64,3.480289
1558.09,3.480009
1561.55,3.479729
1565.01,3.479449
1568.46,3.47917
1571.92,3.478897
1575.38,3.478628
1578.84,3.478359
1582.3,3.47809
1585.76,3.477821
1589.21,3.477552
1592.67,3.477292
1596.13,3.477034
1599.59,3.476776